participant_id	event_id	condition	trial	sequence	response	NCorrect	partialScore	triggerCorrect
sub-016	60	Fast+delay	1	6103497	6103197	4	6	1111011
sub-016	60	Fast+delay	2	9681574	9671586	2	4	1101100
sub-016	60	Fast+delay	3	3418567	8356492	0	0	0
sub-016	60	Fast+delay	4	8502347	8502413	4	4	1111000
sub-016	60	Fast+delay	5	1075829	1075829	7	7	1111111
sub-016	60	Fast+delay	6	4365197	4362579	3	3	1110000
sub-016	60	Fast+delay	7	1620349	1620596	4	4	1111000
sub-016	60	Fast+delay	8	543289	543289	7	7	1111111
sub-016	60	Fast+delay	9	7296104	7145684	1	2	1000001
sub-016	60	Fast+delay	10	8021943	7021942	0	5	111110
sub-016	60	Fast+delay	11	4073659	4026582	2	2	1100000
sub-016	60	Fast+delay	12	7649538	7649325	4	4	1111000
sub-016	60	Fast+delay	13	2754391	2754836	4	4	1111000
sub-016	60	Fast+delay	14	3127084	3270285	1	2	1000010
sub-016	60	Fast+delay	15	9261845	9564215	1	3	1010001
sub-016	60	Fast+delay	16	175839	174165	3	3	1110000
sub-016	60	Fast+delay	17	9482316	1482316	0	6	111111
sub-016	60	Fast+delay	18	8437596	8436549	3	4	1110100
sub-016	60	Fast+delay	19	3057896	3057892	6	6	1111110
sub-016	60	Fast+delay	20	6087134	6087134	7	7	1111111
sub-016	60	Fast+delay	21	5924718	5824196	1	3	1011000
sub-016	60	Fast+delay	22	7016928	7016928	7	7	1111111
sub-016	60	Fast+delay	23	7503492	7501492	3	6	1110111
sub-016	60	Fast+delay	24	3645201	3640292	3	4	1110100
sub-016	60	Fast+delay	25	4320985	4650982	1	4	1001110
sub-016	60	Fast+delay	26	4810763	4810763	7	7	1111111
sub-016	60	Fast+delay	27	9158620	9157620	3	6	1110111
sub-016	60	Fast+delay	28	3862510	3865120	3	4	1110001
sub-016	60	Fast+delay	29	8130469	8130469	7	7	1111111
sub-016	60	Fast+delay	30	7061293	7061293	7	7	1111111
sub-016	60	Fast+delay	31	2473501	2475469	3	3	1110000
sub-016	60	Fast+delay	32	7510642	7510652	5	6	1111101
sub-016	60	Fast+delay	33	3071659	3061769	2	4	1101001
sub-016	60	Fast+delay	34	4063971	3063971	0	6	111111
sub-016	60	Fast+delay	35	5361902	5361502	4	6	1111011
sub-016	60	Fast+delay	36	4537891	4537891	7	7	1111111
sub-016	60	Fast+delay	37	9378652	5445625	0	1	100
sub-016	60	Fast+delay	38	2498356	2891366	1	4	1010101
sub-016	60	Fast+delay	39	8325076	8325076	7	7	1111111
sub-016	60	Fast+delay	40	9028617	9028617	7	7	1111111
sub-016	60	Fast+delay	41	4560123	4560143	5	6	1111101
sub-016	60	Fast+delay	42	7169042	7165024	3	4	1110100
sub-016	60	Fast+delay	43	832715	832715	7	7	1111111
sub-016	60	Fast+delay	44	8956437	8926436	2	5	1101110
sub-016	60	Fast+delay	45	9640178	9640178	7	7	1111111
sub-016	60	Fast+delay	46	7241539	7241528	5	5	1111100
sub-016	60	Fast+delay	47	4029867	4029857	5	6	1111101
sub-016	60	Fast+delay	48	452793	452793	7	7	1111111
sub-016	60	Fast+delay	49	9871365	9871367	6	6	1111110
sub-016	60	Fast+delay	50	584263	584263	7	7	1111111
sub-016	40	Fast	51	2065173	2065157	5	5	1111100
sub-016	40	Fast	52	3815604	2812547	0	2	110000
sub-016	40	Fast	53	3425906	2425906	0	6	111111
sub-016	40	Fast	54	6310725	6542135	1	2	1000001
sub-016	40	Fast	55	3248569	3864589	1	3	1000101
sub-016	40	Fast	56	2874693	2874563	4	5	1111001
sub-016	40	Fast	57	2094576	2096576	3	6	1110111
sub-016	40	Fast	58	4165938	4168547	3	3	1110000
sub-016	40	Fast	59	6145207	6145237	5	6	1111101
sub-016	40	Fast	60	1603784	1632748	2	3	1100100
sub-016	40	Fast	61	5398067	5396587	3	4	1110001
sub-016	40	Fast	62	9356201	9356461	4	5	1111001
sub-016	40	Fast	63	438176	1540763	0	0	0
sub-016	40	Fast	64	5081249	5081649	4	6	1111011
sub-016	40	Fast	65	4632089	4632694	4	4	1111000
sub-016	40	Fast	66	7426539	4723694	0	1	10000
sub-016	40	Fast	67	2316598	2316598	7	7	1111111
sub-016	40	Fast	68	1975362	1926587	2	2	1100000
sub-016	40	Fast	69	7346250	7326468	2	3	1101000
sub-016	40	Fast	70	8692514	8695494	3	4	1110001
sub-016	40	Fast	71	4275068	4925648	1	3	1001001
sub-016	40	Fast	72	6209735	6204893	3	3	1110000
sub-016	40	Fast	73	6105839	6105279	4	5	1111001
sub-016	40	Fast	74	1834207	1835607	3	5	1110011
sub-016	40	Fast	75	7459108	7452107	3	5	1110110
sub-016	40	Fast	76	8376190	8375890	3	5	1110011
sub-016	40	Fast	77	4521867	5421870	0	3	11100
sub-016	40	Fast	78	8620943	8620847	4	5	1111010
sub-016	40	Fast	79	2487965	2458962	2	4	1100110
sub-016	40	Fast	80	2483716	2486916	3	5	1110011
sub-016	40	Fast	81	8476059	8476527	4	4	1111000
sub-016	40	Fast	82	7084361	7046596	2	2	1100000
sub-016	40	Fast	83	9750128	9756187	3	4	1110100
sub-016	40	Fast	84	4392058	4396258	3	5	1110011
sub-016	40	Fast	85	9046138	4015838	0	3	100011
sub-016	40	Fast	86	1789354	1786954	3	5	1110011
sub-016	40	Fast	87	4017926	4589756	1	2	1000001
sub-016	40	Fast	88	3495820	4125986	0	1	1000
sub-016	40	Fast	89	6845291	6842514	3	3	1110000
sub-016	40	Fast	90	6843295	6842195	3	5	1110011
sub-016	40	Fast	91	8143720	8146520	3	5	1110011
sub-016	40	Fast	92	4827936	4725841	1	2	1010000
sub-016	40	Fast	93	4078136	4078195	5	5	1111100
sub-016	40	Fast	94	3789652	4561316	0	0	0
sub-016	40	Fast	95	1795468	1798546	3	3	1110000
sub-016	40	Fast	96	8297054	8296541	3	3	1110000
sub-016	40	Fast	97	7853610	7852610	3	6	1110111
sub-016	40	Fast	98	6019475	6015475	3	6	1110111
sub-016	40	Fast	99	6412930	6415930	3	6	1110111
sub-016	40	Fast	100	415682	145692	1	4	1001101
sub-016	28	Simultaneous	101	8913042	8913042	7	7	1111111
sub-016	28	Simultaneous	102	2685304	2685304	7	7	1111111
sub-016	28	Simultaneous	103	5971204	5971205	6	6	1111110
sub-016	28	Simultaneous	104	5234169	5248963	2	3	1100010
sub-016	28	Simultaneous	105	8702916	8701294	3	3	1110000
sub-016	28	Simultaneous	106	9526804	9526804	7	7	1111111
sub-016	28	Simultaneous	107	819457	819457	7	7	1111111
sub-016	28	Simultaneous	108	2567908	2567908	7	7	1111111
sub-016	28	Simultaneous	109	2754601	2754608	6	6	1111110
sub-016	28	Simultaneous	110	697354	697485	4	4	1111000
sub-016	28	Simultaneous	111	963725	963725	7	7	1111111
sub-016	28	Simultaneous	112	9106758	9106758	7	7	1111111
sub-016	28	Simultaneous	113	9512364	9512364	7	7	1111111
sub-016	28	Simultaneous	114	6987013	6987013	7	7	1111111
sub-016	28	Simultaneous	115	9416573	9416513	5	6	1111101
sub-016	28	Simultaneous	116	9365071	9635071	1	5	1001111
sub-016	28	Simultaneous	117	5196472	5196472	7	7	1111111
sub-016	28	Simultaneous	118	7526849	7526482	4	4	1111000
sub-016	28	Simultaneous	119	8175346	8175346	7	7	1111111
sub-016	28	Simultaneous	120	1032689	1032689	7	7	1111111
sub-016	28	Simultaneous	121	7035694	7035693	6	6	1111110
sub-016	28	Simultaneous	122	5842107	5847103	3	5	1110110
sub-016	28	Simultaneous	123	6324701	6324701	7	7	1111111
sub-016	28	Simultaneous	124	135682	135682	7	7	1111111
sub-016	28	Simultaneous	125	2584197	2489784	1	2	1010000
sub-016	28	Simultaneous	126	1386950	1386950	7	7	1111111
sub-016	28	Simultaneous	127	795283	795283	7	7	1111111
sub-016	28	Simultaneous	128	5234806	5234806	7	7	1111111
sub-016	28	Simultaneous	129	3906485	3906485	7	7	1111111
sub-016	28	Simultaneous	130	2316048	2316048	7	7	1111111
sub-016	28	Simultaneous	131	4053691	4053691	7	7	1111111
sub-016	28	Simultaneous	132	9210378	9210328	5	6	1111101
sub-016	28	Simultaneous	133	2967350	2913750	2	4	1100011
sub-016	28	Simultaneous	134	9810456	9810456	7	7	1111111
sub-016	28	Simultaneous	135	518792	518792	7	7	1111111
sub-016	28	Simultaneous	136	8196425	6185425	0	4	100111
sub-016	28	Simultaneous	137	2154068	2154068	7	7	1111111
sub-016	28	Simultaneous	138	5806791	5806791	7	7	1111111
sub-016	28	Simultaneous	139	561842	561842	7	7	1111111
sub-016	28	Simultaneous	140	4352687	4052678	1	4	1011100
sub-016	28	Simultaneous	141	2347198	2347198	7	7	1111111
sub-016	28	Simultaneous	142	7431026	7431026	7	7	1111111
sub-016	28	Simultaneous	143	856213	856213	7	7	1111111
sub-016	28	Simultaneous	144	628943	628293	4	5	1111001
sub-016	28	Simultaneous	145	6257193	6257189	5	5	1111100
sub-016	28	Simultaneous	146	4682019	4682019	7	7	1111111
sub-016	28	Simultaneous	147	3451279	3451279	7	7	1111111
sub-016	28	Simultaneous	148	9384571	9386584	3	4	1110100
sub-016	28	Simultaneous	149	9147306	9147036	4	5	1111001
sub-016	28	Simultaneous	150	791632	791632	7	7	1111111
sub-016	100	Slow	151	7036492	7036492	7	7	1111111
sub-016	100	Slow	152	6254318	6254983	4	4	1111000
sub-016	100	Slow	153	9083647	9283648	1	5	1011110
sub-016	100	Slow	154	2085914	2085914	7	7	1111111
sub-016	100	Slow	155	3165287	3165287	7	7	1111111
sub-016	100	Slow	156	4179326	4176597	3	3	1110000
sub-016	100	Slow	157	8074321	8074232	4	4	1111000
sub-016	100	Slow	158	7942851	7915481	2	3	1100001
sub-016	100	Slow	159	9153672	9153627	5	5	1111100
sub-016	100	Slow	160	5430861	5430861	7	7	1111111
sub-016	100	Slow	161	7215860	7489460	1	3	1000011
sub-016	100	Slow	162	6523794	6523794	7	7	1111111
sub-016	100	Slow	163	5318607	5316708	3	4	1110010
sub-016	100	Slow	164	9276835	9215487	2	2	1100000
sub-016	100	Slow	165	7243086	7246546	3	4	1110001
sub-016	100	Slow	166	6407259	6407258	6	6	1111110
sub-016	100	Slow	167	2875419	2875419	7	7	1111111
sub-016	100	Slow	168	2187495	2187497	6	6	1111110
sub-016	100	Slow	169	629154	629524	4	5	1111001
sub-016	100	Slow	170	7429853	7426412	3	3	1110000
sub-016	100	Slow	171	5371842	5341872	2	5	1101101
sub-016	100	Slow	172	796324	796324	7	7	1111111
sub-016	100	Slow	173	7890312	7890312	7	7	1111111
sub-016	100	Slow	174	4613275	4617270	3	5	1110110
sub-016	100	Slow	175	1496850	1496895	5	5	1111100
sub-016	100	Slow	176	2756183	2756183	7	7	1111111
sub-016	100	Slow	177	157826	157856	5	6	1111101
sub-016	100	Slow	178	5924603	5924603	7	7	1111111
sub-016	100	Slow	179	8370254	8370528	4	4	1111000
sub-016	100	Slow	180	375982	375982	7	7	1111111
sub-016	100	Slow	181	8309721	8301925	3	4	1110010
sub-016	100	Slow	182	8295137	8295137	7	7	1111111
sub-016	100	Slow	183	159324	159324	7	7	1111111
sub-016	100	Slow	184	9362078	9362078	7	7	1111111
sub-016	100	Slow	185	3518047	3518037	5	6	1111101
sub-016	100	Slow	186	3159704	3159074	4	5	1111001
sub-016	100	Slow	187	742586	742586	7	7	1111111
sub-016	100	Slow	188	2451038	2352038	1	5	1010111
sub-016	100	Slow	189	8497051	8497051	7	7	1111111
sub-016	100	Slow	190	4127539	4127598	5	5	1111100
sub-016	100	Slow	191	6053918	6053918	7	7	1111111
sub-016	100	Slow	192	8610427	8610427	7	7	1111111
sub-016	100	Slow	193	1896342	1896342	7	7	1111111
sub-016	100	Slow	194	5176230	5176230	7	7	1111111
sub-016	100	Slow	195	534289	534289	7	7	1111111
sub-016	100	Slow	196	2913480	2918480	3	6	1110111
sub-016	100	Slow	197	3891462	3891462	7	7	1111111
sub-016	100	Slow	198	9820376	9820376	7	7	1111111
sub-016	100	Slow	199	6321074	6321074	7	7	1111111
sub-016	100	Slow	200	7190842	7190842	7	7	1111111
