participant_id	event_id	condition	trial	sequence	response	NCorrect	partialScore	triggerCorrect
sub-017	100	Slow	1	745293	745293	7	7	1111111
sub-017	100	Slow	2	1680475	1682105	3	4	1110001
sub-017	100	Slow	3	8471230	8124070	1	2	1000001
sub-017	100	Slow	4	5206174	5206740	4	4	1111000
sub-017	100	Slow	5	892415	892415	7	7	1111111
sub-017	100	Slow	6	7482395	7282594	1	4	1011010
sub-017	100	Slow	7	6329540	6204309	1	1	1000000
sub-017	100	Slow	8	1367094	1367096	6	6	1111110
sub-017	100	Slow	9	4819237	4978137	1	3	1000011
sub-017	100	Slow	10	8052371	8053271	3	5	1110011
sub-017	100	Slow	11	4105827	5274271	0	0	0
sub-017	100	Slow	12	861254	861254	7	7	1111111
sub-017	100	Slow	13	3510728	3510758	5	6	1111101
sub-017	100	Slow	14	2159438	2159418	5	6	1111101
sub-017	100	Slow	15	5628091	5219081	1	3	1000101
sub-017	100	Slow	16	4159208	4159208	7	7	1111111
sub-017	100	Slow	17	251734	931754	1	4	1001101
sub-017	100	Slow	18	8043167	8043167	7	7	1111111
sub-017	100	Slow	19	1430762	1420762	2	6	1101111
sub-017	100	Slow	20	1659203	9653420	0	2	110000
sub-017	100	Slow	21	2974138	9274138	0	5	11111
sub-017	100	Slow	22	936124	936185	5	5	1111100
sub-017	100	Slow	23	8941753	8941753	7	7	1111111
sub-017	100	Slow	24	9304257	8034295	0	2	1100
sub-017	100	Slow	25	7245160	7245180	5	6	1111101
sub-017	100	Slow	26	157962	182935	2	3	1100100
sub-017	100	Slow	27	2803745	2803745	7	7	1111111
sub-017	100	Slow	28	7123856	7123856	7	7	1111111
sub-017	100	Slow	29	746521	746521	7	7	1111111
sub-017	100	Slow	30	9324105	9324105	7	7	1111111
sub-017	100	Slow	31	3748095	3748095	7	7	1111111
sub-017	100	Slow	32	8724059	8724059	7	7	1111111
sub-017	100	Slow	33	6089425	6089425	7	7	1111111
sub-017	100	Slow	34	5379408	5279038	1	4	1011001
sub-017	100	Slow	35	9462783	9462783	7	7	1111111
sub-017	100	Slow	36	3495861	3495861	7	7	1111111
sub-017	100	Slow	37	6148239	6148239	7	7	1111111
sub-017	100	Slow	38	2816435	2816435	7	7	1111111
sub-017	100	Slow	39	283675	283675	7	7	1111111
sub-017	100	Slow	40	2593614	2513679	2	4	1101100
sub-017	100	Slow	41	462375	231675	1	3	1000011
sub-017	100	Slow	42	9148756	9148756	7	7	1111111
sub-017	100	Slow	43	9514702	9514702	7	7	1111111
sub-017	100	Slow	44	8462510	8462510	7	7	1111111
sub-017	100	Slow	45	9478231	9432078	2	2	1100000
sub-017	100	Slow	46	9186053	9186053	7	7	1111111
sub-017	100	Slow	47	1368752	1368752	7	7	1111111
sub-017	100	Slow	48	3714859	3714859	7	7	1111111
sub-017	100	Slow	49	5723640	4725860	0	3	110001
sub-017	100	Slow	50	1329478	1329478	7	7	1111111
sub-017	40	Fast	51	3046829	3048291	3	3	1110000
sub-017	40	Fast	52	7524391	5628391	0	4	10111
sub-017	40	Fast	53	8765192	8735192	2	6	1101111
sub-017	40	Fast	54	3546721	3546721	7	7	1111111
sub-017	40	Fast	55	3619508	3519208	1	5	1011011
sub-017	40	Fast	56	1285397	9283547	0	3	110001
sub-017	40	Fast	57	9843756	9243586	1	4	1011001
sub-017	40	Fast	58	5378096	5278096	1	6	1011111
sub-017	40	Fast	59	7824650	8725602	0	2	10100
sub-017	40	Fast	60	6349821	6187091	1	2	1000001
sub-017	40	Fast	61	7039642	7039261	4	4	1111000
sub-017	40	Fast	62	7012936	7032596	2	4	1101001
sub-017	40	Fast	63	4561283	4562813	3	4	1110001
sub-017	40	Fast	64	4927180	4917853	2	3	1101000
sub-017	40	Fast	65	6253789	3267489	0	3	100011
sub-017	40	Fast	66	4710865	4710536	4	4	1111000
sub-017	40	Fast	67	6823719	6823719	7	7	1111111
sub-017	40	Fast	68	3870496	3807946	2	3	1100001
sub-017	40	Fast	69	4023917	4029685	3	3	1110000
sub-017	40	Fast	70	5016987	5016987	7	7	1111111
sub-017	40	Fast	71	9051487	9054187	3	5	1110011
sub-017	40	Fast	72	1795403	1794950	3	3	1110000
sub-017	40	Fast	73	2138650	2186530	2	3	1100001
sub-017	40	Fast	74	8143592	8143560	5	5	1111100
sub-017	40	Fast	75	614953	614957	6	6	1111110
sub-017	40	Fast	76	6539207	6924575	1	1	1000000
sub-017	40	Fast	77	4527910	4527961	5	5	1111100
sub-017	40	Fast	78	3479260	9267421	0	0	0
sub-017	40	Fast	79	2470986	2478906	3	5	1110101
sub-017	40	Fast	80	5984362	5984503	4	4	1111000
sub-017	40	Fast	81	2106874	2106873	6	6	1111110
sub-017	40	Fast	82	3765904	9765803	0	4	111010
sub-017	40	Fast	83	3507182	3507981	4	5	1111010
sub-017	40	Fast	84	9632874	9638512	3	3	1110000
sub-017	40	Fast	85	8507236	8507329	4	4	1111000
sub-017	40	Fast	86	6409182	6409182	7	7	1111111
sub-017	40	Fast	87	1694753	9186532	0	0	0
sub-017	40	Fast	88	7061354	7061354	7	7	1111111
sub-017	40	Fast	89	7923506	7256039	1	1	1000000
sub-017	40	Fast	90	3569017	6325879	0	0	0
sub-017	40	Fast	91	9083657	9083657	7	7	1111111
sub-017	40	Fast	92	2613907	2671390	2	2	1100000
sub-017	40	Fast	93	6104289	6104589	4	6	1111011
sub-017	40	Fast	94	5316809	5316982	4	4	1111000
sub-017	40	Fast	95	9657034	9657823	4	4	1111000
sub-017	40	Fast	96	5276130	5276039	4	5	1111010
sub-017	40	Fast	97	6513248	6123526	1	2	1001000
sub-017	40	Fast	98	5632981	5632891	4	5	1111001
sub-017	40	Fast	99	9476305	9470652	3	3	1110000
sub-017	40	Fast	100	5938716	5938062	4	4	1111000
sub-017	28	Simultaneous	101	3274590	3274590	7	7	1111111
sub-017	28	Simultaneous	102	8719406	8716405	3	5	1110110
sub-017	28	Simultaneous	103	1708925	1708925	7	7	1111111
sub-017	28	Simultaneous	104	9157064	9157064	7	7	1111111
sub-017	28	Simultaneous	105	4369087	4369087	7	7	1111111
sub-017	28	Simultaneous	106	1749835	1749835	7	7	1111111
sub-017	28	Simultaneous	107	6531780	9536780	0	5	110111
sub-017	28	Simultaneous	108	3125076	3125076	7	7	1111111
sub-017	28	Simultaneous	109	1763950	1763950	7	7	1111111
sub-017	28	Simultaneous	110	6479132	6479132	7	7	1111111
sub-017	28	Simultaneous	111	3287401	3587401	1	6	1011111
sub-017	28	Simultaneous	112	491753	491753	7	7	1111111
sub-017	28	Simultaneous	113	1865342	1865342	7	7	1111111
sub-017	28	Simultaneous	114	2348601	2348601	7	7	1111111
sub-017	28	Simultaneous	115	5862347	5869431	3	3	1110000
sub-017	28	Simultaneous	116	9534628	9415628	1	4	1000111
sub-017	28	Simultaneous	117	1436259	1436259	7	7	1111111
sub-017	28	Simultaneous	118	3895607	3895607	7	7	1111111
sub-017	28	Simultaneous	119	194786	194786	7	7	1111111
sub-017	28	Simultaneous	120	4921350	4921350	7	7	1111111
sub-017	28	Simultaneous	121	3719602	3719602	7	7	1111111
sub-017	28	Simultaneous	122	5428931	5429831	3	5	1110011
sub-017	28	Simultaneous	123	9630847	9620847	2	6	1101111
sub-017	28	Simultaneous	124	7149230	7149230	7	7	1111111
sub-017	28	Simultaneous	125	1593802	7589036	0	1	100000
sub-017	28	Simultaneous	126	4352968	4859267	1	3	1010010
sub-017	28	Simultaneous	127	852349	835948	2	3	1100010
sub-017	28	Simultaneous	128	1908243	1908243	7	7	1111111
sub-017	28	Simultaneous	129	4365128	4265128	1	6	1011111
sub-017	28	Simultaneous	130	5439281	5439281	7	7	1111111
sub-017	28	Simultaneous	131	8916350	8916350	7	7	1111111
sub-017	28	Simultaneous	132	4805926	4805926	7	7	1111111
sub-017	28	Simultaneous	133	5642810	4541728	0	1	10000
sub-017	28	Simultaneous	134	7824109	7425093	1	2	1010000
sub-017	28	Simultaneous	135	6804731	6804731	7	7	1111111
sub-017	28	Simultaneous	136	5369708	5369708	7	7	1111111
sub-017	28	Simultaneous	137	4720635	4720635	7	7	1111111
sub-017	28	Simultaneous	138	5921648	5926438	3	4	1110001
sub-017	28	Simultaneous	139	2041965	2091356	2	3	1101000
sub-017	28	Simultaneous	140	7348192	7348819	4	4	1111000
sub-017	28	Simultaneous	141	8053417	8053417	7	7	1111111
sub-017	28	Simultaneous	142	752693	752693	7	7	1111111
sub-017	28	Simultaneous	143	3082175	3082175	7	7	1111111
sub-017	28	Simultaneous	144	8735961	8135961	1	6	1011111
sub-017	28	Simultaneous	145	3876105	3876105	7	7	1111111
sub-017	28	Simultaneous	146	864715	854272	2	3	1101000
sub-017	28	Simultaneous	147	3642198	3186542	1	1	1000000
sub-017	28	Simultaneous	148	1948703	1948703	7	7	1111111
sub-017	28	Simultaneous	149	4203968	4209653	3	3	1110000
sub-017	28	Simultaneous	150	6190853	6190853	7	7	1111111
sub-017	60	Fast+delay	151	3189256	3829563	1	2	1001000
sub-017	60	Fast+delay	152	3682459	3657489	2	4	1100101
sub-017	60	Fast+delay	153	6190457	6190457	7	7	1111111
sub-017	60	Fast+delay	154	5762398	5768922	3	3	1110000
sub-017	60	Fast+delay	155	1046872	1046872	7	7	1111111
sub-017	60	Fast+delay	156	1986574	1986572	6	6	1111110
sub-017	60	Fast+delay	157	7531962	7536982	3	5	1110101
sub-017	60	Fast+delay	158	5481936	5481936	7	7	1111111
sub-017	60	Fast+delay	159	5708942	5087541	1	2	1000010
sub-017	60	Fast+delay	160	6437508	6450728	2	3	1100001
sub-017	60	Fast+delay	161	2781506	2781506	7	7	1111111
sub-017	60	Fast+delay	162	1654309	1654309	7	7	1111111
sub-017	60	Fast+delay	163	3478502	3478502	7	7	1111111
sub-017	60	Fast+delay	164	2576104	2576104	7	7	1111111
sub-017	60	Fast+delay	165	9625380	9526340	1	4	1010101
sub-017	60	Fast+delay	166	1495076	9285430	0	1	1000
sub-017	60	Fast+delay	167	1458290	1458290	7	7	1111111
sub-017	60	Fast+delay	168	4293081	1243098	0	3	101100
sub-017	60	Fast+delay	169	3085269	8036521	0	1	100000
sub-017	60	Fast+delay	170	3086519	3051469	2	3	1100001
sub-017	60	Fast+delay	171	187493	497185	1	2	1001000
sub-017	60	Fast+delay	172	3694827	3694862	5	5	1111100
sub-017	60	Fast+delay	173	2473518	2415689	2	2	1100000
sub-017	60	Fast+delay	174	8317509	8317059	4	5	1111001
sub-017	60	Fast+delay	175	2480591	2480147	4	4	1111000
sub-017	60	Fast+delay	176	5409861	5409287	4	4	1111000
sub-017	60	Fast+delay	177	8732451	8732450	6	6	1111110
sub-017	60	Fast+delay	178	7614358	7614352	6	6	1111110
sub-017	60	Fast+delay	179	3876495	3876495	7	7	1111111
sub-017	60	Fast+delay	180	469175	469175	7	7	1111111
sub-017	60	Fast+delay	181	7812356	1732956	0	3	1011
sub-017	60	Fast+delay	182	6470359	3670549	0	3	11001
sub-017	60	Fast+delay	183	2463780	5467892	0	2	110000
sub-017	60	Fast+delay	184	5431792	5431702	5	6	1111101
sub-017	60	Fast+delay	185	9076318	9076318	7	7	1111111
sub-017	60	Fast+delay	186	1035967	1037968	3	5	1110110
sub-017	60	Fast+delay	187	2597018	3597052	0	4	111100
sub-017	60	Fast+delay	188	9364075	9364005	5	6	1111101
sub-017	60	Fast+delay	189	3509684	3509684	7	7	1111111
sub-017	60	Fast+delay	190	3859140	3786021	1	1	1000000
sub-017	60	Fast+delay	191	6149328	6143008	3	4	1110001
sub-017	60	Fast+delay	192	576243	576243	7	7	1111111
sub-017	60	Fast+delay	193	2690458	2465832	1	1	1000000
sub-017	60	Fast+delay	194	2183960	2183900	5	6	1111101
sub-017	60	Fast+delay	195	2035867	2035867	7	7	1111111
sub-017	60	Fast+delay	196	4695780	4693821	3	3	1110000
sub-017	60	Fast+delay	197	5802914	5802914	7	7	1111111
sub-017	60	Fast+delay	198	9172806	9127500	2	3	1100010
sub-017	60	Fast+delay	199	2910678	2910600	5	5	1111100
sub-017	60	Fast+delay	200	4518097	4518000	5	5	1111100
