participant_id	event_id	condition	trial	sequence	response	NCorrect	partialScore	triggerCorrect
sub-034	60	Fast+delay	1	291647	291647	7	7	1111111
sub-034	60	Fast+delay	2	7948320	7348920	1	5	1011011
sub-034	60	Fast+delay	3	4796382	4796380	6	6	1111110
sub-034	60	Fast+delay	4	2685471	2685471	7	7	1111111
sub-034	60	Fast+delay	5	1856407	1856407	7	7	1111111
sub-034	60	Fast+delay	6	2610943	2610943	7	7	1111111
sub-034	60	Fast+delay	7	2743689	2743689	7	7	1111111
sub-034	60	Fast+delay	8	5389201	5382901	3	5	1110011
sub-034	60	Fast+delay	9	7013524	7013524	7	7	1111111
sub-034	60	Fast+delay	10	5049386	5049386	7	7	1111111
sub-034	60	Fast+delay	11	7985406	7985064	4	4	1111000
sub-034	60	Fast+delay	12	9364257	9364257	7	7	1111111
sub-034	60	Fast+delay	13	9468572	9365872	1	4	1010011
sub-034	60	Fast+delay	14	9243518	9243512	6	6	1111110
sub-034	60	Fast+delay	15	8327904	8327904	7	7	1111111
sub-034	60	Fast+delay	16	5730641	5730641	7	7	1111111
sub-034	60	Fast+delay	17	3128947	3128947	7	7	1111111
sub-034	60	Fast+delay	18	5642710	5642710	7	7	1111111
sub-034	60	Fast+delay	19	541297	541297	7	7	1111111
sub-034	60	Fast+delay	20	2316549	2316549	7	7	1111111
sub-034	60	Fast+delay	21	8426735	8426735	7	7	1111111
sub-034	60	Fast+delay	22	6201438	6201438	7	7	1111111
sub-034	60	Fast+delay	23	984156	914832	2	3	1101000
sub-034	60	Fast+delay	24	3760842	842376	0	0	0
sub-034	60	Fast+delay	25	7031698	7031698	7	7	1111111
sub-034	60	Fast+delay	26	5982034	5982034	7	7	1111111
sub-034	60	Fast+delay	27	8613042	8613042	7	7	1111111
sub-034	60	Fast+delay	28	3459026	3459026	7	7	1111111
sub-034	60	Fast+delay	29	1579340	1579034	4	4	1111000
sub-034	60	Fast+delay	30	7896410	7896440	5	6	1111101
sub-034	60	Fast+delay	31	7596183	7596183	7	7	1111111
sub-034	60	Fast+delay	32	4625197	4625197	7	7	1111111
sub-034	60	Fast+delay	33	8103657	8103657	7	7	1111111
sub-034	60	Fast+delay	34	6249518	6249518	7	7	1111111
sub-034	60	Fast+delay	35	8460253	8460253	7	7	1111111
sub-034	60	Fast+delay	36	7698521	7698502	5	5	1111100
sub-034	60	Fast+delay	37	8532607	8532607	7	7	1111111
sub-034	60	Fast+delay	38	5794106	5796520	3	3	1110000
sub-034	60	Fast+delay	39	1456908	1456908	7	7	1111111
sub-034	60	Fast+delay	40	5102467	5102467	7	7	1111111
sub-034	60	Fast+delay	41	1230798	1230798	7	7	1111111
sub-034	60	Fast+delay	42	5479023	5479023	7	7	1111111
sub-034	60	Fast+delay	43	4859763	4859763	7	7	1111111
sub-034	60	Fast+delay	44	8954316	8954215	4	5	1111010
sub-034	60	Fast+delay	45	7104865	7104865	7	7	1111111
sub-034	60	Fast+delay	46	4915267	4915267	7	7	1111111
sub-034	60	Fast+delay	47	6075294	6075294	7	7	1111111
sub-034	60	Fast+delay	48	4239617	4260549	2	2	1100000
sub-034	60	Fast+delay	49	2306194	2306194	7	7	1111111
sub-034	60	Fast+delay	50	3975182	3975182	7	7	1111111
sub-034	100	Slow	51	4671952	2354323	0	0	0
sub-034	100	Slow	52	7863540	7863540	7	7	1111111
sub-034	100	Slow	53	7214960	7214960	7	7	1111111
sub-034	100	Slow	54	469531	469531	7	7	1111111
sub-034	100	Slow	55	5207164	5207164	7	7	1111111
sub-034	100	Slow	56	3814275	3874215	2	5	1101101
sub-034	100	Slow	57	5046297	5046297	7	7	1111111
sub-034	100	Slow	58	9021758	9021758	7	7	1111111
sub-034	100	Slow	59	3954782	3954782	7	7	1111111
sub-034	100	Slow	60	8957643	8954785	3	3	1110000
sub-034	100	Slow	61	4803265	4803265	7	7	1111111
sub-034	100	Slow	62	7850163	7850163	7	7	1111111
sub-034	100	Slow	63	635972	635972	7	7	1111111
sub-034	100	Slow	64	9421508	9421508	7	7	1111111
sub-034	100	Slow	65	1460258	1460258	7	7	1111111
sub-034	100	Slow	66	8603194	8603194	7	7	1111111
sub-034	100	Slow	67	6473081	6473081	7	7	1111111
sub-034	100	Slow	68	8437125	8437125	7	7	1111111
sub-034	100	Slow	69	5247891	5247821	5	6	1111101
sub-034	100	Slow	70	7861940	7863091	3	3	1110000
sub-034	100	Slow	71	3879401	3879401	7	7	1111111
sub-034	100	Slow	72	1783620	1783620	7	7	1111111
sub-034	100	Slow	73	2506198	2506198	7	7	1111111
sub-034	100	Slow	74	8245013	8245023	5	6	1111101
sub-034	100	Slow	75	4901582	4901582	7	7	1111111
sub-034	100	Slow	76	9867510	9865701	3	3	1110000
sub-034	100	Slow	77	9824016	9824016	7	7	1111111
sub-034	100	Slow	78	4703296	4703296	7	7	1111111
sub-034	100	Slow	79	2397158	2397158	7	7	1111111
sub-034	100	Slow	80	8426170	8426170	7	7	1111111
sub-034	100	Slow	81	2853617	2813657	2	5	1101101
sub-034	100	Slow	82	435981	435981	7	7	1111111
sub-034	100	Slow	83	6734129	6734123	6	6	1111110
sub-034	100	Slow	84	5638140	5638140	7	7	1111111
sub-034	100	Slow	85	4590712	4590712	7	7	1111111
sub-034	100	Slow	86	1834279	1834279	7	7	1111111
sub-034	100	Slow	87	1724896	1824796	1	5	1011011
sub-034	100	Slow	88	4830659	4830659	7	7	1111111
sub-034	100	Slow	89	4370126	4370126	7	7	1111111
sub-034	100	Slow	90	7283410	7283410	7	7	1111111
sub-034	100	Slow	91	6872953	6872953	7	7	1111111
sub-034	100	Slow	92	1287964	1287964	7	7	1111111
sub-034	100	Slow	93	6941703	6940703	3	6	1110111
sub-034	100	Slow	94	9805764	9805764	7	7	1111111
sub-034	100	Slow	95	4960318	4960318	7	7	1111111
sub-034	100	Slow	96	1053689	1053689	7	7	1111111
sub-034	100	Slow	97	8605742	8605749	6	6	1111110
sub-034	100	Slow	98	9215673	9215673	7	7	1111111
sub-034	100	Slow	99	534896	534896	7	7	1111111
sub-034	100	Slow	100	3610792	3610792	7	7	1111111
sub-034	40	Fast	101	253741	257341	3	5	1110011
sub-034	40	Fast	102	7184325	7184325	7	7	1111111
sub-034	40	Fast	103	6542703	6243507	1	3	1010010
sub-034	40	Fast	104	9605124	3703540	0	1	10000
sub-034	40	Fast	105	9367410	9367503	4	4	1111000
sub-034	40	Fast	106	8537164	8537164	7	7	1111111
sub-034	40	Fast	107	4360712	4360712	7	7	1111111
sub-034	40	Fast	108	6570432	6570432	7	7	1111111
sub-034	40	Fast	109	315284	315284	7	7	1111111
sub-034	40	Fast	110	4672910	4672910	7	7	1111111
sub-034	40	Fast	111	9358172	9358172	7	7	1111111
sub-034	40	Fast	112	5209784	5209784	7	7	1111111
sub-034	40	Fast	113	1876530	1876530	7	7	1111111
sub-034	40	Fast	114	4179653	4176953	3	5	1110011
sub-034	40	Fast	115	5872603	5872603	7	7	1111111
sub-034	40	Fast	116	375861	375861	7	7	1111111
sub-034	40	Fast	117	127493	127493	7	7	1111111
sub-034	40	Fast	118	4035891	4065893	2	5	1101110
sub-034	40	Fast	119	8015732	8015732	7	7	1111111
sub-034	40	Fast	120	8926407	8926407	7	7	1111111
sub-034	40	Fast	121	7931560	7931560	7	7	1111111
sub-034	40	Fast	122	453927	453297	4	5	1111001
sub-034	40	Fast	123	2938507	2937507	3	6	1110111
sub-034	40	Fast	124	7048153	7048153	7	7	1111111
sub-034	40	Fast	125	9182605	9182605	7	7	1111111
sub-034	40	Fast	126	9205816	9205816	7	7	1111111
sub-034	40	Fast	127	8321076	8321076	7	7	1111111
sub-034	40	Fast	128	398651	395651	3	6	1110111
sub-034	40	Fast	129	192685	192685	7	7	1111111
sub-034	40	Fast	130	7146859	7146859	7	7	1111111
sub-034	40	Fast	131	3249756	3246751	3	5	1110110
sub-034	40	Fast	132	9563012	9563012	7	7	1111111
sub-034	40	Fast	133	6732815	6732819	6	6	1111110
sub-034	40	Fast	134	8163094	8163094	7	7	1111111
sub-034	40	Fast	135	9564821	9564851	5	6	1111101
sub-034	40	Fast	136	1287936	1286542	3	3	1110000
sub-034	40	Fast	137	5468730	5468750	5	6	1111101
sub-034	40	Fast	138	9378520	8379520	0	5	110111
sub-034	40	Fast	139	1790845	1790845	7	7	1111111
sub-034	40	Fast	140	781924	781254	4	5	1111001
sub-034	40	Fast	141	839726	839786	5	6	1111101
sub-034	40	Fast	142	3704215	3704215	7	7	1111111
sub-034	40	Fast	143	687943	687493	4	5	1111001
sub-034	40	Fast	144	548917	540917	3	6	1110111
sub-034	40	Fast	145	9876204	9875401	3	4	1110010
sub-034	40	Fast	146	3870591	3870591	7	7	1111111
sub-034	40	Fast	147	2641589	2641589	7	7	1111111
sub-034	40	Fast	148	8092517	8092517	7	7	1111111
sub-034	40	Fast	149	7129034	7129034	7	7	1111111
sub-034	40	Fast	150	4023687	4023687	7	7	1111111
sub-034	28	Simultaneous	151	7435192	7435192	7	7	1111111
sub-034	28	Simultaneous	152	6379418	6439178	1	3	1001001
sub-034	28	Simultaneous	153	2307816	2307816	7	7	1111111
sub-034	28	Simultaneous	154	6405318	6405318	7	7	1111111
sub-034	28	Simultaneous	155	3478950	3478950	7	7	1111111
sub-034	28	Simultaneous	156	6429310	6429310	7	7	1111111
sub-034	28	Simultaneous	157	4125873	4125873	7	7	1111111
sub-034	28	Simultaneous	158	3901875	3901875	7	7	1111111
sub-034	28	Simultaneous	159	8450279	8450279	7	7	1111111
sub-034	28	Simultaneous	160	3407162	3407162	7	7	1111111
sub-034	28	Simultaneous	161	8173094	8173094	7	7	1111111
sub-034	28	Simultaneous	162	4687213	4687213	7	7	1111111
sub-034	28	Simultaneous	163	956248	956248	7	7	1111111
sub-034	28	Simultaneous	164	5648029	5648029	7	7	1111111
sub-034	28	Simultaneous	165	5721406	5711406	2	6	1101111
sub-034	28	Simultaneous	166	8470325	8470325	7	7	1111111
sub-034	28	Simultaneous	167	5308476	5308476	7	7	1111111
sub-034	28	Simultaneous	168	2368591	2368591	7	7	1111111
sub-034	28	Simultaneous	169	4269107	4269107	7	7	1111111
sub-034	28	Simultaneous	170	5126478	5126478	7	7	1111111
sub-034	28	Simultaneous	171	4531780	4531780	7	7	1111111
sub-034	28	Simultaneous	172	9782543	9782543	7	7	1111111
sub-034	28	Simultaneous	173	167835	167835	7	7	1111111
sub-034	28	Simultaneous	174	6528940	6528940	7	7	1111111
sub-034	28	Simultaneous	175	6748305	6748305	7	7	1111111
sub-034	28	Simultaneous	176	326897	326897	7	7	1111111
sub-034	28	Simultaneous	177	8490371	8490371	7	7	1111111
sub-034	28	Simultaneous	178	3815746	3815746	7	7	1111111
sub-034	28	Simultaneous	179	5802197	5802197	7	7	1111111
sub-034	28	Simultaneous	180	1284073	1284073	7	7	1111111
sub-034	28	Simultaneous	181	5437019	5437019	7	7	1111111
sub-034	28	Simultaneous	182	8347602	8347602	7	7	1111111
sub-034	28	Simultaneous	183	4752389	4752389	7	7	1111111
sub-034	28	Simultaneous	184	9672058	9672548	4	5	1111001
sub-034	28	Simultaneous	185	6308547	6308547	7	7	1111111
sub-034	28	Simultaneous	186	7936482	7936482	7	7	1111111
sub-034	28	Simultaneous	187	3592460	3592460	7	7	1111111
sub-034	28	Simultaneous	188	7698213	7698213	7	7	1111111
sub-034	28	Simultaneous	189	1605298	1605298	7	7	1111111
sub-034	28	Simultaneous	190	4581230	4581213	5	5	1111100
sub-034	28	Simultaneous	191	2403865	2403865	7	7	1111111
sub-034	28	Simultaneous	192	4362785	4362785	7	7	1111111
sub-034	28	Simultaneous	193	912675	912675	7	7	1111111
sub-034	28	Simultaneous	194	6723410	6723410	7	7	1111111
sub-034	28	Simultaneous	195	284956	284956	7	7	1111111
sub-034	28	Simultaneous	196	6297418	6297418	7	7	1111111
sub-034	28	Simultaneous	197	4812967	4812967	7	7	1111111
sub-034	28	Simultaneous	198	4685372	4685372	7	7	1111111
sub-034	28	Simultaneous	199	457631	457631	7	7	1111111
sub-034	28	Simultaneous	200	3602457	3602457	7	7	1111111
