participant_id	event_id	condition	trial	sequence	response	NCorrect	partialScore	triggerCorrect
sub-001	40	Fast	1	5490673	5490673	7	7	1111111
sub-001	40	Fast	2	9561023	9561023	7	7	1111111
sub-001	40	Fast	3	9856734	9857634	3	5	1110011
sub-001	40	Fast	4	4592763	4592730	5	5	1111100
sub-001	40	Fast	5	8152967	8152936	5	5	1111100
sub-001	40	Fast	6	5749612	5749612	7	7	1111111
sub-001	40	Fast	7	9735180	9730000	3	4	1110001
sub-001	40	Fast	8	1497238	1457422	2	3	1101000
sub-001	40	Fast	9	6583197	5591186	0	2	100100
sub-001	40	Fast	10	728359	728657	4	5	1111010
sub-001	40	Fast	11	1260487	1200000	2	3	1101000
sub-001	40	Fast	12	1749062	1749062	7	7	1111111
sub-001	40	Fast	13	4693712	4653712	2	6	1101111
sub-001	40	Fast	14	1385794	1388543	3	3	1110000
sub-001	40	Fast	15	6730189	6730183	6	6	1111110
sub-001	40	Fast	16	7145389	7145389	7	7	1111111
sub-001	40	Fast	17	2105876	2175866	2	5	1101101
sub-001	40	Fast	18	6308521	9308207	0	3	111000
sub-001	40	Fast	19	3918450	3918450	7	7	1111111
sub-001	40	Fast	20	3052481	3052481	7	7	1111111
sub-001	40	Fast	21	5124360	5124460	4	6	1111011
sub-001	40	Fast	22	6317820	3218200	0	2	10001
sub-001	40	Fast	23	6159847	5169870	0	3	101100
sub-001	40	Fast	24	7061589	7061589	7	7	1111111
sub-001	40	Fast	25	1965204	1965204	7	7	1111111
sub-001	40	Fast	26	1352789	1252789	1	6	1011111
sub-001	40	Fast	27	7803451	7803451	7	7	1111111
sub-001	40	Fast	28	7062458	7042608	2	4	1101001
sub-001	40	Fast	29	8149035	8149035	7	7	1111111
sub-001	40	Fast	30	4972316	7952716	0	4	101011
sub-001	40	Fast	31	5681903	5681463	4	5	1111001
sub-001	40	Fast	32	3970168	3970168	7	7	1111111
sub-001	40	Fast	33	1265378	1265398	5	6	1111101
sub-001	40	Fast	34	3248019	3248019	7	7	1111111
sub-001	40	Fast	35	9614753	9614301	4	4	1111000
sub-001	40	Fast	36	7465301	7465301	7	7	1111111
sub-001	40	Fast	37	9870132	9813620	2	2	1100000
sub-001	40	Fast	38	637824	637824	7	7	1111111
sub-001	40	Fast	39	8435261	8435261	7	7	1111111
sub-001	40	Fast	40	8264105	8161035	1	3	1010001
sub-001	40	Fast	41	7503214	7503214	7	7	1111111
sub-001	40	Fast	42	789621	789621	7	7	1111111
sub-001	40	Fast	43	1964830	1964830	7	7	1111111
sub-001	40	Fast	44	7164298	7164298	7	7	1111111
sub-001	40	Fast	45	2617943	2617943	7	7	1111111
sub-001	40	Fast	46	8704563	8604573	1	5	1011101
sub-001	40	Fast	47	2386015	2305615	2	4	1100011
sub-001	40	Fast	48	9024351	9024351	7	7	1111111
sub-001	40	Fast	49	6341028	6341028	7	7	1111111
sub-001	40	Fast	50	4359261	4351261	3	6	1110111
sub-001	60	Fast+delay	51	7281954	7281954	7	7	1111111
sub-001	60	Fast+delay	52	3095217	3095217	7	7	1111111
sub-001	60	Fast+delay	53	5649280	5649280	7	7	1111111
sub-001	60	Fast+delay	54	5803946	5803946	7	7	1111111
sub-001	60	Fast+delay	55	9382760	9382760	7	7	1111111
sub-001	60	Fast+delay	56	2498031	2498031	7	7	1111111
sub-001	60	Fast+delay	57	3425901	3425901	7	7	1111111
sub-001	60	Fast+delay	58	2189046	2189046	7	7	1111111
sub-001	60	Fast+delay	59	6705812	6705812	7	7	1111111
sub-001	60	Fast+delay	60	8623749	8623747	6	6	1111110
sub-001	60	Fast+delay	61	1738654	1738654	7	7	1111111
sub-001	60	Fast+delay	62	9341720	9341720	7	7	1111111
sub-001	60	Fast+delay	63	9370684	9370684	7	7	1111111
sub-001	60	Fast+delay	64	7063941	7063941	7	7	1111111
sub-001	60	Fast+delay	65	9435678	9435678	7	7	1111111
sub-001	60	Fast+delay	66	9358406	9358406	7	7	1111111
sub-001	60	Fast+delay	67	6134520	6134520	7	7	1111111
sub-001	60	Fast+delay	68	9257603	9257603	7	7	1111111
sub-001	60	Fast+delay	69	7405936	7405936	7	7	1111111
sub-001	60	Fast+delay	70	1408376	1408374	6	6	1111110
sub-001	60	Fast+delay	71	194357	194357	7	7	1111111
sub-001	60	Fast+delay	72	1684793	1684793	7	7	1111111
sub-001	60	Fast+delay	73	9872013	9872013	7	7	1111111
sub-001	60	Fast+delay	74	7853026	7853026	7	7	1111111
sub-001	60	Fast+delay	75	768354	768554	4	6	1111011
sub-001	60	Fast+delay	76	8524309	8524309	7	7	1111111
sub-001	60	Fast+delay	77	723518	723518	7	7	1111111
sub-001	60	Fast+delay	78	1289653	1289653	7	7	1111111
sub-001	60	Fast+delay	79	8243905	8243905	7	7	1111111
sub-001	60	Fast+delay	80	3598412	3598412	7	7	1111111
sub-001	60	Fast+delay	81	9681743	9681743	7	7	1111111
sub-001	60	Fast+delay	82	3026184	3026184	7	7	1111111
sub-001	60	Fast+delay	83	4528019	4528014	6	6	1111110
sub-001	60	Fast+delay	84	1734825	1734825	7	7	1111111
sub-001	60	Fast+delay	85	1078493	1078493	7	7	1111111
sub-001	60	Fast+delay	86	4689057	4689057	7	7	1111111
sub-001	60	Fast+delay	87	7140853	7140853	7	7	1111111
sub-001	60	Fast+delay	88	5109876	5106570	3	4	1110010
sub-001	60	Fast+delay	89	2419067	2419067	7	7	1111111
sub-001	60	Fast+delay	90	924375	924375	7	7	1111111
sub-001	60	Fast+delay	91	7850942	7850942	7	7	1111111
sub-001	60	Fast+delay	92	4287530	4287530	7	7	1111111
sub-001	60	Fast+delay	93	7490623	7490623	7	7	1111111
sub-001	60	Fast+delay	94	912543	912543	7	7	1111111
sub-001	60	Fast+delay	95	2108697	2108697	7	7	1111111
sub-001	60	Fast+delay	96	5027613	5027613	7	7	1111111
sub-001	60	Fast+delay	97	9685042	9685042	7	7	1111111
sub-001	60	Fast+delay	98	6547189	5947189	0	5	11111
sub-001	60	Fast+delay	99	7485039	7485039	7	7	1111111
sub-001	60	Fast+delay	100	6302781	6302781	7	7	1111111
sub-001	28	Simultaneous	101	2091576	2091576	7	7	1111111
sub-001	28	Simultaneous	102	8753426	8453726	1	5	1011011
sub-001	28	Simultaneous	103	1792850	1792850	7	7	1111111
sub-001	28	Simultaneous	104	2649570	2649570	7	7	1111111
sub-001	28	Simultaneous	105	5871304	5871304	7	7	1111111
sub-001	28	Simultaneous	106	8376029	8376029	7	7	1111111
sub-001	28	Simultaneous	107	2069374	2069374	7	7	1111111
sub-001	28	Simultaneous	108	8470915	8470915	7	7	1111111
sub-001	28	Simultaneous	109	8701392	8740392	2	5	1100111
sub-001	28	Simultaneous	110	4825017	4825017	7	7	1111111
sub-001	28	Simultaneous	111	765182	765182	7	7	1111111
sub-001	28	Simultaneous	112	2617359	2617354	6	6	1111110
sub-001	28	Simultaneous	113	2456719	2657419	1	4	1010011
sub-001	28	Simultaneous	114	3278056	3278057	6	6	1111110
sub-001	28	Simultaneous	115	5840962	5820962	2	6	1101111
sub-001	28	Simultaneous	116	1693084	1693084	7	7	1111111
sub-001	28	Simultaneous	117	8137654	8137654	7	7	1111111
sub-001	28	Simultaneous	118	7563024	7563024	7	7	1111111
sub-001	28	Simultaneous	119	7089365	7089365	7	7	1111111
sub-001	28	Simultaneous	120	2947860	2947860	7	7	1111111
sub-001	28	Simultaneous	121	4290861	4280961	2	5	1101011
sub-001	28	Simultaneous	122	2705841	2708541	3	5	1110011
sub-001	28	Simultaneous	123	4056832	4056832	7	7	1111111
sub-001	28	Simultaneous	124	1047982	1047982	7	7	1111111
sub-001	28	Simultaneous	125	367841	346584	2	2	1100000
sub-001	28	Simultaneous	126	7024319	7024319	7	7	1111111
sub-001	28	Simultaneous	127	4198206	4198206	7	7	1111111
sub-001	28	Simultaneous	128	2401375	2401375	7	7	1111111
sub-001	28	Simultaneous	129	6473891	6473891	7	7	1111111
sub-001	28	Simultaneous	130	853294	853294	7	7	1111111
sub-001	28	Simultaneous	131	5632871	5632871	7	7	1111111
sub-001	28	Simultaneous	132	5287901	5287901	7	7	1111111
sub-001	28	Simultaneous	133	9863107	9563107	1	6	1011111
sub-001	28	Simultaneous	134	3081279	3081279	7	7	1111111
sub-001	28	Simultaneous	135	8203759	8203759	7	7	1111111
sub-001	28	Simultaneous	136	3854901	2754901	0	5	11111
sub-001	28	Simultaneous	137	7412638	7412638	7	7	1111111
sub-001	28	Simultaneous	138	158793	585904	1	1	1000000
sub-001	28	Simultaneous	139	5970362	8970362	0	6	111111
sub-001	28	Simultaneous	140	8142907	8142907	7	7	1111111
sub-001	28	Simultaneous	141	245197	245197	7	7	1111111
sub-001	28	Simultaneous	142	167598	167598	7	7	1111111
sub-001	28	Simultaneous	143	317584	317584	7	7	1111111
sub-001	28	Simultaneous	144	4281930	4281930	7	7	1111111
sub-001	28	Simultaneous	145	3456719	3456719	7	7	1111111
sub-001	28	Simultaneous	146	3074856	3074586	4	5	1111001
sub-001	28	Simultaneous	147	2631907	2631907	7	7	1111111
sub-001	28	Simultaneous	148	6731284	6731284	7	7	1111111
sub-001	28	Simultaneous	149	1749528	1749528	7	7	1111111
sub-001	28	Simultaneous	150	4063178	4063178	7	7	1111111
sub-001	100	Slow	151	8432617	8432617	7	7	1111111
sub-001	100	Slow	152	7930451	7930451	7	7	1111111
sub-001	100	Slow	153	7258640	7258640	7	7	1111111
sub-001	100	Slow	154	8137905	8137905	7	7	1111111
sub-001	100	Slow	155	3278091	3278091	7	7	1111111
sub-001	100	Slow	156	5893067	5893067	7	7	1111111
sub-001	100	Slow	157	8637095	8637095	7	7	1111111
sub-001	100	Slow	158	8139504	8139504	7	7	1111111
sub-001	100	Slow	159	7184205	7184205	7	7	1111111
sub-001	100	Slow	160	8743069	8743069	7	7	1111111
sub-001	100	Slow	161	591748	591748	7	7	1111111
sub-001	100	Slow	162	134586	134586	7	7	1111111
sub-001	100	Slow	163	257183	257183	7	7	1111111
sub-001	100	Slow	164	6298547	6298547	7	7	1111111
sub-001	100	Slow	165	1835204	1835204	7	7	1111111
sub-001	100	Slow	166	2709486	2709486	7	7	1111111
sub-001	100	Slow	167	3529486	3529486	7	7	1111111
sub-001	100	Slow	168	5341289	5741289	1	6	1011111
sub-001	100	Slow	169	7059328	7059328	7	7	1111111
sub-001	100	Slow	170	6523498	6523498	7	7	1111111
sub-001	100	Slow	171	7154920	7154920	7	7	1111111
sub-001	100	Slow	172	2687150	2689150	3	6	1110111
sub-001	100	Slow	173	7402895	7402895	7	7	1111111
sub-001	100	Slow	174	5723498	5723408	5	6	1111101
sub-001	100	Slow	175	6823547	6823547	7	7	1111111
sub-001	100	Slow	176	9874150	9874150	7	7	1111111
sub-001	100	Slow	177	8947650	8947650	7	7	1111111
sub-001	100	Slow	178	6083752	6083752	7	7	1111111
sub-001	100	Slow	179	7569012	7569018	6	6	1111110
sub-001	100	Slow	180	9234867	9234817	5	6	1111101
sub-001	100	Slow	181	8732016	8732016	7	7	1111111
sub-001	100	Slow	182	2304918	2304918	7	7	1111111
sub-001	100	Slow	183	4560873	4560871	6	6	1111110
sub-001	100	Slow	184	8761053	8761053	7	7	1111111
sub-001	100	Slow	185	3469280	3469280	7	7	1111111
sub-001	100	Slow	186	5064378	5064378	7	7	1111111
sub-001	100	Slow	187	2593146	2593146	7	7	1111111
sub-001	100	Slow	188	4605278	4605278	7	7	1111111
sub-001	100	Slow	189	9285107	9585107	1	6	1011111
sub-001	100	Slow	190	652481	652481	7	7	1111111
sub-001	100	Slow	191	6541078	6541078	7	7	1111111
sub-001	100	Slow	192	9738514	9738514	7	7	1111111
sub-001	100	Slow	193	6819025	6819025	7	7	1111111
sub-001	100	Slow	194	7312685	7312685	7	7	1111111
sub-001	100	Slow	195	3690125	3690125	7	7	1111111
sub-001	100	Slow	196	843697	843697	7	7	1111111
sub-001	100	Slow	197	6704839	6704839	7	7	1111111
sub-001	100	Slow	198	7368540	7368540	7	7	1111111
sub-001	100	Slow	199	3810294	3810294	7	7	1111111
sub-001	100	Slow	200	9613257	9613257	7	7	1111111
